"NMI_1E-4.spc"
"Wavelength nm."	"Abs."
400.00	0.062283
400.50	0.062063
401.00	0.061992
401.50	0.061813
402.00	0.061458
402.50	0.061209
403.00	0.061122
403.50	0.060988
404.00	0.060810
404.50	0.060689
405.00	0.060556
405.50	0.060498
406.00	0.060327
406.50	0.060208
407.00	0.060154
407.50	0.060061
408.00	0.059857
408.50	0.059775
409.00	0.059645
409.50	0.059553
410.00	0.059494
410.50	0.059485
411.00	0.059278
411.50	0.059217
412.00	0.059025
412.50	0.058867
413.00	0.058753
413.50	0.058687
414.00	0.058637
414.50	0.058573
415.00	0.058496
415.50	0.058403
416.00	0.058297
416.50	0.058184
417.00	0.058112
417.50	0.058072
418.00	0.057991
418.50	0.057924
419.00	0.057924
419.50	0.057894
420.00	0.057833
420.50	0.057713
421.00	0.057680
421.50	0.057474
422.00	0.057391
422.50	0.057329
423.00	0.057300
423.50	0.057254
424.00	0.057265
424.50	0.057208
425.00	0.057189
425.50	0.057195
426.00	0.057089
426.50	0.057065
427.00	0.057126
427.50	0.057142
428.00	0.057117
428.50	0.057273
429.00	0.057383
429.50	0.057484
430.00	0.057644
430.50	0.057782
431.00	0.057841
431.50	0.057925
432.00	0.058005
432.50	0.058046
433.00	0.058184
433.50	0.058336
434.00	0.058495
434.50	0.058677
435.00	0.058900
435.50	0.059072
436.00	0.059297
436.50	0.059401
437.00	0.059474
437.50	0.059603
438.00	0.059749
438.50	0.059722
439.00	0.059958
439.50	0.060200
440.00	0.060379
440.50	0.060554
441.00	0.060796
441.50	0.060882
442.00	0.061025
442.50	0.061101
443.00	0.061166
443.50	0.061275
444.00	0.061422
444.50	0.061451
445.00	0.061453
445.50	0.061511
446.00	0.061560
446.50	0.061474
447.00	0.061484
447.50	0.061484
448.00	0.061436
448.50	0.061301
449.00	0.061303
449.50	0.061152
450.00	0.061035
450.50	0.060929
451.00	0.060829
451.50	0.060716
452.00	0.060642
452.50	0.060632
453.00	0.060521
453.50	0.060488
454.00	0.060435
454.50	0.060422
455.00	0.060293
455.50	0.060209
456.00	0.060183
456.50	0.060020
457.00	0.059874
457.50	0.059836
458.00	0.059747
458.50	0.059718
459.00	0.059744
459.50	0.059752
460.00	0.059770
460.50	0.059886
461.00	0.059861
461.50	0.059854
462.00	0.059917
462.50	0.059997
463.00	0.060082
463.50	0.060209
464.00	0.060452
464.50	0.060723
465.00	0.060881
465.50	0.061074
466.00	0.061354
466.50	0.061599
467.00	0.061761
467.50	0.062026
468.00	0.062282
468.50	0.062524
469.00	0.062880
469.50	0.063197
470.00	0.063579
470.50	0.064041
471.00	0.064437
471.50	0.064764
472.00	0.065140
472.50	0.065421
473.00	0.065725
473.50	0.066043
474.00	0.066326
474.50	0.066665
475.00	0.067022
475.50	0.067326
476.00	0.067596
476.50	0.067871
477.00	0.068101
477.50	0.068228
478.00	0.068381
478.50	0.068550
479.00	0.068702
479.50	0.068890
480.00	0.069081
480.50	0.069205
481.00	0.069256
481.50	0.069329
482.00	0.069354
482.50	0.069466
483.00	0.069441
483.50	0.069441
484.00	0.069350
484.50	0.069173
485.00	0.069046
485.50	0.068961
486.00	0.068868
486.50	0.068817
487.00	0.068797
487.50	0.068697
488.00	0.068624
488.50	0.068515
489.00	0.068370
489.50	0.068204
490.00	0.067980
490.50	0.067745
491.00	0.067494
491.50	0.067174
492.00	0.066897
492.50	0.066650
493.00	0.066319
493.50	0.065955
494.00	0.065623
494.50	0.065203
495.00	0.064694
495.50	0.064196
496.00	0.063688
496.50	0.063122
497.00	0.062622
497.50	0.062054
498.00	0.061445
498.50	0.060895
499.00	0.060316
499.50	0.059667
500.00	0.059066
500.50	0.058525
501.00	0.057822
501.50	0.057119
502.00	0.056393
502.50	0.055665
503.00	0.054911
503.50	0.054269
504.00	0.053682
504.50	0.053070
505.00	0.052503
505.50	0.051959
506.00	0.051480
506.50	0.051047
507.00	0.050631
507.50	0.050288
508.00	0.049957
508.50	0.049646
509.00	0.049410
509.50	0.049286
510.00	0.049144
510.50	0.049141
511.00	0.049229
511.50	0.049220
512.00	0.049318
512.50	0.049493
513.00	0.049653
513.50	0.049797
514.00	0.050082
514.50	0.050377
515.00	0.050776
515.50	0.051110
516.00	0.051503
516.50	0.051998
517.00	0.052499
517.50	0.052890
518.00	0.053488
518.50	0.054059
519.00	0.054576
519.50	0.055108
520.00	0.055805
520.50	0.056429
521.00	0.057224
521.50	0.057964
522.00	0.058762
522.50	0.059505
523.00	0.060306
523.50	0.060991
524.00	0.061810
524.50	0.062501
525.00	0.063246
525.50	0.063931
526.00	0.064618
526.50	0.065243
527.00	0.065947
527.50	0.066579
528.00	0.067191
528.50	0.067717
529.00	0.068110
529.50	0.068410
530.00	0.068622
530.50	0.068821
531.00	0.068919
531.50	0.068957
532.00	0.068897
532.50	0.068692
533.00	0.068352
533.50	0.067919
534.00	0.067399
534.50	0.066811
535.00	0.066167
535.50	0.065421
536.00	0.064593
536.50	0.063777
537.00	0.062806
537.50	0.061754
538.00	0.060662
538.50	0.059556
539.00	0.058335
539.50	0.057183
540.00	0.056028
540.50	0.054802
541.00	0.053574
541.50	0.052373
542.00	0.051145
542.50	0.049977
543.00	0.048904
543.50	0.047777
544.00	0.046697
544.50	0.045686
545.00	0.044646
545.50	0.043586
546.00	0.042636
546.50	0.041725
547.00	0.040865
547.50	0.040070
548.00	0.039318
548.50	0.038572
549.00	0.037786
549.50	0.036994
550.00	0.036208
550.50	0.035472
551.00	0.034777
551.50	0.034224
552.00	0.033735
552.50	0.033288
553.00	0.032831
553.50	0.032355
554.00	0.031844
554.50	0.031260
555.00	0.030669
555.50	0.030144
556.00	0.029722
556.50	0.029212
557.00	0.028770
557.50	0.028365
558.00	0.027947
558.50	0.027491
559.00	0.027141
559.50	0.026847
560.00	0.026530
560.50	0.026157
561.00	0.025753
561.50	0.025306
562.00	0.024824
562.50	0.024325
563.00	0.023933
563.50	0.023582
564.00	0.023270
564.50	0.022971
565.00	0.022711
565.50	0.022365
566.00	0.022017
566.50	0.021653
567.00	0.021212
567.50	0.020710
568.00	0.020239
568.50	0.019828
569.00	0.019394
569.50	0.019019
570.00	0.018746
570.50	0.018509
571.00	0.018125
571.50	0.017837
572.00	0.017534
572.50	0.017157
573.00	0.016811
573.50	0.016578
574.00	0.016245
574.50	0.015930
575.00	0.015611
575.50	0.015215
576.00	0.014907
576.50	0.014641
577.00	0.014411
577.50	0.014293
578.00	0.014158
578.50	0.013943
579.00	0.013736
579.50	0.013556
580.00	0.013254
580.50	0.013004
581.00	0.012802
581.50	0.012608
582.00	0.012391
582.50	0.012231
583.00	0.012098
583.50	0.011917
584.00	0.011751
584.50	0.011591
585.00	0.011459
585.50	0.011292
586.00	0.011158
586.50	0.011005
587.00	0.010850
587.50	0.010714
588.00	0.010542
588.50	0.010396
589.00	0.010321
589.50	0.010216
590.00	0.010053
590.50	0.010023
591.00	0.009970
591.50	0.009866
592.00	0.009728
592.50	0.009706
593.00	0.009548
593.50	0.009395
594.00	0.009244
594.50	0.009146
595.00	0.009005
595.50	0.008970
596.00	0.008920
596.50	0.008815
597.00	0.008741
597.50	0.008724
598.00	0.008639
598.50	0.008518
599.00	0.008522
599.50	0.008455
600.00	0.008407
600.50	0.008333
601.00	0.008331
601.50	0.008254
602.00	0.008212
602.50	0.008109
603.00	0.008041
603.50	0.007939
604.00	0.007877
604.50	0.007820
605.00	0.007714
605.50	0.007694
606.00	0.007643
606.50	0.007603
607.00	0.007560
607.50	0.007507
608.00	0.007412
608.50	0.007428
609.00	0.007438
609.50	0.007447
610.00	0.007451
610.50	0.007454
611.00	0.007340
611.50	0.007287
612.00	0.007206
612.50	0.007154
613.00	0.007051
613.50	0.007062
614.00	0.007001
614.50	0.006973
615.00	0.006972
615.50	0.007023
616.00	0.006945
616.50	0.006866
617.00	0.006793
617.50	0.006714
618.00	0.006656
618.50	0.006662
619.00	0.006579
619.50	0.006549
620.00	0.006499
620.50	0.006359
621.00	0.006318
621.50	0.006347
622.00	0.006347
622.50	0.006313
623.00	0.006359
623.50	0.006308
624.00	0.006255
624.50	0.006130
625.00	0.006053
625.50	0.006009
626.00	0.005986
626.50	0.005932
627.00	0.006008
627.50	0.005965
628.00	0.005874
628.50	0.005841
629.00	0.005914
629.50	0.005823
630.00	0.005873
630.50	0.005903
631.00	0.005938
631.50	0.005862
632.00	0.005849
632.50	0.005819
633.00	0.005807
633.50	0.005681
634.00	0.005598
634.50	0.005554
635.00	0.005468
635.50	0.005410
636.00	0.005379
636.50	0.005322
637.00	0.005271
637.50	0.005277
638.00	0.005289
638.50	0.005237
639.00	0.005267
639.50	0.005304
640.00	0.005366
640.50	0.005289
641.00	0.005301
641.50	0.005273
642.00	0.005176
642.50	0.005089
643.00	0.005126
643.50	0.005133
644.00	0.005104
644.50	0.005147
645.00	0.005145
645.50	0.005121
646.00	0.005083
646.50	0.004990
647.00	0.004928
647.50	0.004861
648.00	0.004828
648.50	0.004763
649.00	0.004808
649.50	0.004854
650.00	0.004840
650.50	0.004806
651.00	0.004829
651.50	0.004801
652.00	0.004741
652.50	0.004765
653.00	0.004711
653.50	0.004610
654.00	0.004549
654.50	0.004521
655.00	0.004384
655.50	0.004418
656.00	0.004458
656.50	0.004456
657.00	0.004395
657.50	0.004395
658.00	0.004342
658.50	0.004349
659.00	0.004353
659.50	0.004411
660.00	0.004458
660.50	0.004428
661.00	0.004351
661.50	0.004328
662.00	0.004308
662.50	0.004258
663.00	0.004208
663.50	0.004241
664.00	0.004236
664.50	0.004228
665.00	0.004200
665.50	0.004270
666.00	0.004265
666.50	0.004298
667.00	0.004301
667.50	0.004349
668.00	0.004313
668.50	0.004295
669.00	0.004228
669.50	0.004160
670.00	0.004158
670.50	0.004136
671.00	0.004119
671.50	0.004122
672.00	0.004125
672.50	0.004111
673.00	0.004168
673.50	0.004175
674.00	0.004139
674.50	0.004191
675.00	0.004174
675.50	0.004159
676.00	0.004137
676.50	0.004126
677.00	0.004061
677.50	0.003998
678.00	0.003976
678.50	0.003973
679.00	0.004094
679.50	0.004067
680.00	0.004029
680.50	0.003933
681.00	0.003878
681.50	0.003723
682.00	0.003685
682.50	0.003692
683.00	0.003670
683.50	0.003686
684.00	0.003706
684.50	0.003667
685.00	0.003619
685.50	0.003630
686.00	0.003583
686.50	0.003598
687.00	0.003634
687.50	0.003648
688.00	0.003678
688.50	0.003661
689.00	0.003663
689.50	0.003713
690.00	0.003774
690.50	0.003780
691.00	0.003817
691.50	0.003779
692.00	0.003721
692.50	0.003679
693.00	0.003676
693.50	0.003687
694.00	0.003565
694.50	0.003475
695.00	0.003389
695.50	0.003382
696.00	0.003325
696.50	0.003385
697.00	0.003408
697.50	0.003468
698.00	0.003382
698.50	0.003330
699.00	0.003302
699.50	0.003300
700.00	0.003275
700.50	0.003257
701.00	0.003364
701.50	0.003346
702.00	0.003352
702.50	0.003333
703.00	0.003319
703.50	0.003211
704.00	0.003279
704.50	0.003323
705.00	0.003284
705.50	0.003227
706.00	0.003252
706.50	0.003257
707.00	0.003161
707.50	0.003172
708.00	0.003265
708.50	0.003256
709.00	0.003177
709.50	0.003184
710.00	0.003218
710.50	0.003169
711.00	0.003129
711.50	0.003082
712.00	0.003083
712.50	0.003041
713.00	0.003090
713.50	0.003057
714.00	0.003083
714.50	0.003016
715.00	0.002998
715.50	0.002886
716.00	0.002858
716.50	0.002821
717.00	0.002786
717.50	0.002783
718.00	0.002815
718.50	0.002825
719.00	0.002835
719.50	0.002903
720.00	0.002874
720.50	0.002862
721.00	0.002825
721.50	0.002825
722.00	0.002788
722.50	0.002765
723.00	0.002742
723.50	0.002837
724.00	0.002858
724.50	0.002843
725.00	0.002837
725.50	0.002834
726.00	0.002756
726.50	0.002700
727.00	0.002757
727.50	0.002734
728.00	0.002632
728.50	0.002600
729.00	0.002589
729.50	0.002505
730.00	0.002497
730.50	0.002543
731.00	0.002537
731.50	0.002632
732.00	0.002631
732.50	0.002729
733.00	0.002725
733.50	0.002764
734.00	0.002674
734.50	0.002648
735.00	0.002562
735.50	0.002536
736.00	0.002493
736.50	0.002534
737.00	0.002539
737.50	0.002425
738.00	0.002476
738.50	0.002427
739.00	0.002410
739.50	0.002480
740.00	0.002591
740.50	0.002591
741.00	0.002660
741.50	0.002647
742.00	0.002675
742.50	0.002657
743.00	0.002584
743.50	0.002512
744.00	0.002489
744.50	0.002443
745.00	0.002454
745.50	0.002524
746.00	0.002568
746.50	0.002471
747.00	0.002388
747.50	0.002207
748.00	0.002160
748.50	0.002147
749.00	0.002227
749.50	0.002256
750.00	0.002475
750.50	0.002491
751.00	0.002423
751.50	0.002483
752.00	0.002503
752.50	0.002415
753.00	0.002407
753.50	0.002483
754.00	0.002411
754.50	0.002455
755.00	0.002432
755.50	0.002400
756.00	0.002370
756.50	0.002300
757.00	0.002181
757.50	0.002173
758.00	0.002195
758.50	0.002252
759.00	0.002339
759.50	0.002405
760.00	0.002399
760.50	0.002407
761.00	0.002370
761.50	0.002271
762.00	0.002124
762.50	0.002108
763.00	0.002127
763.50	0.002123
764.00	0.002231
764.50	0.002330
765.00	0.002364
765.50	0.002248
766.00	0.002159
766.50	0.002041
767.00	0.001996
767.50	0.001920
768.00	0.002003
768.50	0.002012
769.00	0.002024
769.50	0.002119
770.00	0.002266
770.50	0.002288
771.00	0.002383
771.50	0.002452
772.00	0.002394
772.50	0.002353
773.00	0.002314
773.50	0.002308
774.00	0.002245
774.50	0.002290
775.00	0.002230
775.50	0.002273
776.00	0.002235
776.50	0.002203
777.00	0.002140
777.50	0.002105
778.00	0.002039
778.50	0.001957
779.00	0.001824
779.50	0.001780
780.00	0.001858
780.50	0.001833
781.00	0.001843
781.50	0.002024
782.00	0.002017
782.50	0.001945
783.00	0.001909
783.50	0.001887
784.00	0.001878
784.50	0.001911
785.00	0.001962
785.50	0.002026
786.00	0.002093
786.50	0.002070
787.00	0.002011
787.50	0.001924
788.00	0.001889
788.50	0.001783
789.00	0.001725
789.50	0.001734
790.00	0.001696
790.50	0.001590
791.00	0.001689
791.50	0.001753
792.00	0.001736
792.50	0.001698
793.00	0.001781
793.50	0.001674
794.00	0.001584
794.50	0.001537
795.00	0.001739
795.50	0.001744
796.00	0.001734
796.50	0.001690
797.00	0.001783
797.50	0.001744
798.00	0.001701
798.50	0.001700
799.00	0.001754
799.50	0.001691
800.00	0.001585
