"IPROH_1E-3.spc"
"Wavelength nm."	"Abs."
400.00	0.418273
400.50	0.417254
401.00	0.415666
401.50	0.413866
402.00	0.412016
402.50	0.410251
403.00	0.408360
403.50	0.406757
404.00	0.405081
404.50	0.403544
405.00	0.401825
405.50	0.400334
406.00	0.398834
406.50	0.397327
407.00	0.395875
407.50	0.394606
408.00	0.393278
408.50	0.392090
409.00	0.390807
409.50	0.389568
410.00	0.388442
410.50	0.387285
411.00	0.386168
411.50	0.385220
412.00	0.384169
412.50	0.383117
413.00	0.382161
413.50	0.381141
414.00	0.380133
414.50	0.379363
415.00	0.378563
415.50	0.377608
416.00	0.376831
416.50	0.376183
417.00	0.375505
417.50	0.374885
418.00	0.374384
418.50	0.373917
419.00	0.373415
419.50	0.373050
420.00	0.372815
420.50	0.372742
421.00	0.372426
421.50	0.372285
422.00	0.372043
422.50	0.371851
423.00	0.371680
423.50	0.371662
424.00	0.371659
424.50	0.371748
425.00	0.371788
425.50	0.371925
426.00	0.372110
426.50	0.372272
427.00	0.372525
427.50	0.372743
428.00	0.372994
428.50	0.373235
429.00	0.373526
429.50	0.373820
430.00	0.374222
430.50	0.374585
431.00	0.375042
431.50	0.375489
432.00	0.375969
432.50	0.376368
433.00	0.376830
433.50	0.377147
434.00	0.377558
434.50	0.377967
435.00	0.378406
435.50	0.378780
436.00	0.379317
436.50	0.379802
437.00	0.380239
437.50	0.380693
438.00	0.381293
438.50	0.381737
439.00	0.382165
439.50	0.382743
440.00	0.383330
440.50	0.383709
441.00	0.384202
441.50	0.384742
442.00	0.385090
442.50	0.385495
443.00	0.385978
443.50	0.386536
444.00	0.386989
444.50	0.387448
445.00	0.387835
445.50	0.388365
446.00	0.388796
446.50	0.389280
447.00	0.389823
447.50	0.390360
448.00	0.390726
448.50	0.391185
449.00	0.391510
449.50	0.391871
450.00	0.392254
450.50	0.392639
451.00	0.393015
451.50	0.393386
452.00	0.393598
452.50	0.393955
453.00	0.394228
453.50	0.394422
454.00	0.394690
454.50	0.394899
455.00	0.395044
455.50	0.395279
456.00	0.395558
456.50	0.395827
457.00	0.396164
457.50	0.396454
458.00	0.396702
458.50	0.396975
459.00	0.397278
459.50	0.397614
460.00	0.397940
460.50	0.398264
461.00	0.398546
461.50	0.398798
462.00	0.399057
462.50	0.399388
463.00	0.399761
463.50	0.400183
464.00	0.400582
464.50	0.401062
465.00	0.401471
465.50	0.401994
466.00	0.402533
466.50	0.403200
467.00	0.403812
467.50	0.404612
468.00	0.405327
468.50	0.406042
469.00	0.406754
469.50	0.407510
470.00	0.408150
470.50	0.408949
471.00	0.409754
471.50	0.410648
472.00	0.411513
472.50	0.412373
473.00	0.413104
473.50	0.413744
474.00	0.414385
474.50	0.415113
475.00	0.415773
475.50	0.416582
476.00	0.417381
476.50	0.418026
477.00	0.418614
477.50	0.419222
478.00	0.419629
478.50	0.420159
479.00	0.420601
479.50	0.420949
480.00	0.421188
480.50	0.421386
481.00	0.421344
481.50	0.421337
482.00	0.421223
482.50	0.421142
483.00	0.420877
483.50	0.420553
484.00	0.420044
484.50	0.419387
485.00	0.418529
485.50	0.417596
486.00	0.416569
486.50	0.415397
487.00	0.414125
487.50	0.412698
488.00	0.411278
488.50	0.409731
489.00	0.408090
489.50	0.406427
490.00	0.404754
490.50	0.402878
491.00	0.400984
491.50	0.399087
492.00	0.397109
492.50	0.395140
493.00	0.393126
493.50	0.391066
494.00	0.389025
494.50	0.386998
495.00	0.385025
495.50	0.383110
496.00	0.381273
496.50	0.379487
497.00	0.377773
497.50	0.375974
498.00	0.374238
498.50	0.372606
499.00	0.370976
499.50	0.369418
500.00	0.367895
500.50	0.366487
501.00	0.365196
501.50	0.363916
502.00	0.362752
502.50	0.361736
503.00	0.360713
503.50	0.359691
504.00	0.358829
504.50	0.357983
505.00	0.357272
505.50	0.356739
506.00	0.356166
506.50	0.355684
507.00	0.355257
507.50	0.354877
508.00	0.354408
508.50	0.354117
509.00	0.353820
509.50	0.353608
510.00	0.353332
510.50	0.353221
511.00	0.353156
511.50	0.353109
512.00	0.353026
512.50	0.352985
513.00	0.352878
513.50	0.352780
514.00	0.352698
514.50	0.352562
515.00	0.352439
515.50	0.352296
516.00	0.352012
516.50	0.351653
517.00	0.351359
517.50	0.350990
518.00	0.350469
518.50	0.349915
519.00	0.349378
519.50	0.348673
520.00	0.347816
520.50	0.346963
521.00	0.345959
521.50	0.344699
522.00	0.343222
522.50	0.341766
523.00	0.340145
523.50	0.338364
524.00	0.336507
524.50	0.334601
525.00	0.332529
525.50	0.330355
526.00	0.328061
526.50	0.325722
527.00	0.323311
527.50	0.320663
528.00	0.317930
528.50	0.315203
529.00	0.312387
529.50	0.309519
530.00	0.306712
530.50	0.303945
531.00	0.301193
531.50	0.298449
532.00	0.295720
532.50	0.293031
533.00	0.290322
533.50	0.287685
534.00	0.285091
534.50	0.282646
535.00	0.280336
535.50	0.278109
536.00	0.275935
536.50	0.273844
537.00	0.271721
537.50	0.269631
538.00	0.267719
538.50	0.265799
539.00	0.264044
539.50	0.262423
540.00	0.260839
540.50	0.259216
541.00	0.257649
541.50	0.256117
542.00	0.254574
542.50	0.253157
543.00	0.251774
543.50	0.250515
544.00	0.249164
544.50	0.247909
545.00	0.246620
545.50	0.245378
546.00	0.244046
546.50	0.242819
547.00	0.241500
547.50	0.240127
548.00	0.238762
548.50	0.237342
549.00	0.236002
549.50	0.234645
550.00	0.233228
550.50	0.231772
551.00	0.230410
551.50	0.228865
552.00	0.227312
552.50	0.225745
553.00	0.224130
553.50	0.222393
554.00	0.220698
554.50	0.219011
555.00	0.217350
555.50	0.215689
556.00	0.214013
556.50	0.212319
557.00	0.210663
557.50	0.208966
558.00	0.207252
558.50	0.205606
559.00	0.203869
559.50	0.202039
560.00	0.200225
560.50	0.198427
561.00	0.196568
561.50	0.194760
562.00	0.193013
562.50	0.191192
563.00	0.189380
563.50	0.187533
564.00	0.185655
564.50	0.183648
565.00	0.181737
565.50	0.179781
566.00	0.177844
566.50	0.175857
567.00	0.173954
567.50	0.171970
568.00	0.169952
568.50	0.168000
569.00	0.166006
569.50	0.164053
570.00	0.162136
570.50	0.160231
571.00	0.158298
571.50	0.156402
572.00	0.154501
572.50	0.152497
573.00	0.150515
573.50	0.148551
574.00	0.146688
574.50	0.144698
575.00	0.142869
575.50	0.140943
576.00	0.139085
576.50	0.137131
577.00	0.135204
577.50	0.133261
578.00	0.131474
578.50	0.129595
579.00	0.127858
579.50	0.126227
580.00	0.124543
580.50	0.122926
581.00	0.121290
581.50	0.119579
582.00	0.117922
582.50	0.116280
583.00	0.114649
583.50	0.113078
584.00	0.111597
584.50	0.110071
585.00	0.108690
585.50	0.107212
586.00	0.105763
586.50	0.104336
587.00	0.102943
587.50	0.101454
588.00	0.100061
588.50	0.098706
589.00	0.097420
589.50	0.096167
590.00	0.094952
590.50	0.093705
591.00	0.092495
591.50	0.091269
592.00	0.089981
592.50	0.088750
593.00	0.087564
593.50	0.086386
594.00	0.085217
594.50	0.084087
595.00	0.082987
595.50	0.081934
596.00	0.080891
596.50	0.079923
597.00	0.078971
597.50	0.077964
598.00	0.076916
598.50	0.075883
599.00	0.074813
599.50	0.073868
600.00	0.072978
600.50	0.072216
601.00	0.071442
601.50	0.070691
602.00	0.069804
602.50	0.069021
603.00	0.068139
603.50	0.067379
604.00	0.066638
604.50	0.066000
605.00	0.065273
605.50	0.064646
606.00	0.063993
606.50	0.063337
607.00	0.062744
607.50	0.062205
608.00	0.061615
608.50	0.060971
609.00	0.060372
609.50	0.059771
610.00	0.059207
610.50	0.058612
611.00	0.058022
611.50	0.057429
612.00	0.056846
612.50	0.056275
613.00	0.055784
613.50	0.055378
614.00	0.054892
614.50	0.054467
615.00	0.054032
615.50	0.053586
616.00	0.053140
616.50	0.052776
617.00	0.052312
617.50	0.051870
618.00	0.051410
618.50	0.050932
619.00	0.050462
619.50	0.050130
620.00	0.049741
620.50	0.049353
621.00	0.048977
621.50	0.048564
622.00	0.048099
622.50	0.047671
623.00	0.047366
623.50	0.047074
624.00	0.046828
624.50	0.046501
625.00	0.046202
625.50	0.045866
626.00	0.045555
626.50	0.045186
627.00	0.044881
627.50	0.044619
628.00	0.044313
628.50	0.043983
629.00	0.043716
629.50	0.043410
630.00	0.043088
630.50	0.042796
631.00	0.042440
631.50	0.042141
632.00	0.041931
632.50	0.041611
633.00	0.041315
633.50	0.041136
634.00	0.040918
634.50	0.040653
635.00	0.040459
635.50	0.040122
636.00	0.039803
636.50	0.039503
637.00	0.039207
637.50	0.038968
638.00	0.038801
638.50	0.038562
639.00	0.038380
639.50	0.038097
640.00	0.037812
640.50	0.037532
641.00	0.037318
641.50	0.036968
642.00	0.036829
642.50	0.036557
643.00	0.036392
643.50	0.036180
644.00	0.036009
644.50	0.035722
645.00	0.035615
645.50	0.035381
646.00	0.035218
646.50	0.034939
647.00	0.034740
647.50	0.034520
648.00	0.034353
648.50	0.034086
649.00	0.034034
649.50	0.033899
650.00	0.033601
650.50	0.033378
651.00	0.033195
651.50	0.032975
652.00	0.032796
652.50	0.032646
653.00	0.032555
653.50	0.032444
654.00	0.032253
654.50	0.032060
655.00	0.031879
655.50	0.031646
656.00	0.031403
656.50	0.031209
657.00	0.030970
657.50	0.030820
658.00	0.030617
658.50	0.030428
659.00	0.030311
659.50	0.030150
660.00	0.029965
660.50	0.029747
661.00	0.029586
661.50	0.029383
662.00	0.029178
662.50	0.029003
663.00	0.028863
663.50	0.028725
664.00	0.028458
664.50	0.028304
665.00	0.028179
665.50	0.028057
666.00	0.027914
666.50	0.027856
667.00	0.027721
667.50	0.027561
668.00	0.027433
668.50	0.027217
669.00	0.027040
669.50	0.027004
670.00	0.026886
670.50	0.026709
671.00	0.026640
671.50	0.026536
672.00	0.026319
672.50	0.026186
673.00	0.026035
673.50	0.025853
674.00	0.025708
674.50	0.025544
675.00	0.025380
675.50	0.025284
676.00	0.025177
676.50	0.024965
677.00	0.024849
677.50	0.024749
678.00	0.024572
678.50	0.024505
679.00	0.024500
679.50	0.024426
680.00	0.024281
680.50	0.024187
681.00	0.024032
681.50	0.023837
682.00	0.023577
682.50	0.023464
683.00	0.023321
683.50	0.023240
684.00	0.023177
684.50	0.023184
685.00	0.023048
685.50	0.022910
686.00	0.022796
686.50	0.022718
687.00	0.022571
687.50	0.022475
688.00	0.022490
688.50	0.022321
689.00	0.022194
689.50	0.022110
690.00	0.022038
690.50	0.021857
691.00	0.021766
691.50	0.021663
692.00	0.021628
692.50	0.021475
693.00	0.021363
693.50	0.021295
694.00	0.021169
694.50	0.021077
695.00	0.021013
695.50	0.020894
696.00	0.020776
696.50	0.020699
697.00	0.020574
697.50	0.020501
698.00	0.020485
698.50	0.020368
699.00	0.020238
699.50	0.020099
700.00	0.019937
700.50	0.019803
701.00	0.019675
701.50	0.019503
702.00	0.019449
702.50	0.019399
703.00	0.019236
703.50	0.019188
704.00	0.019169
704.50	0.019093
705.00	0.019039
705.50	0.019044
706.00	0.018920
706.50	0.018930
707.00	0.018775
707.50	0.018687
708.00	0.018580
708.50	0.018528
709.00	0.018400
709.50	0.018298
710.00	0.018223
710.50	0.018180
711.00	0.018171
711.50	0.018092
712.00	0.018045
712.50	0.017979
713.00	0.017900
713.50	0.017730
714.00	0.017649
714.50	0.017628
715.00	0.017453
715.50	0.017325
716.00	0.017243
716.50	0.017173
717.00	0.017076
717.50	0.017032
718.00	0.016999
718.50	0.016936
719.00	0.016899
719.50	0.016851
720.00	0.016869
720.50	0.016714
721.00	0.016619
721.50	0.016529
722.00	0.016482
722.50	0.016376
723.00	0.016317
723.50	0.016314
724.00	0.016203
724.50	0.016122
725.00	0.016044
725.50	0.016111
726.00	0.016076
726.50	0.016051
727.00	0.015994
727.50	0.015859
728.00	0.015777
728.50	0.015778
729.00	0.015746
729.50	0.015658
730.00	0.015689
730.50	0.015625
731.00	0.015475
731.50	0.015327
732.00	0.015275
732.50	0.015227
733.00	0.015170
733.50	0.015149
734.00	0.015112
734.50	0.014987
735.00	0.014849
735.50	0.014775
736.00	0.014677
736.50	0.014628
737.00	0.014676
737.50	0.014648
738.00	0.014594
738.50	0.014549
739.00	0.014470
739.50	0.014382
740.00	0.014380
740.50	0.014355
741.00	0.014347
741.50	0.014291
742.00	0.014179
742.50	0.014114
743.00	0.014038
743.50	0.013962
744.00	0.014016
744.50	0.013912
745.00	0.013789
745.50	0.013803
746.00	0.013690
746.50	0.013560
747.00	0.013628
747.50	0.013614
748.00	0.013431
748.50	0.013373
749.00	0.013276
749.50	0.013196
750.00	0.013086
750.50	0.013025
751.00	0.013017
751.50	0.013028
752.00	0.012965
752.50	0.012966
753.00	0.013007
753.50	0.012963
754.00	0.012816
754.50	0.012796
755.00	0.012746
755.50	0.012586
756.00	0.012454
756.50	0.012431
757.00	0.012346
757.50	0.012310
758.00	0.012298
758.50	0.012315
759.00	0.012379
759.50	0.012252
760.00	0.012204
760.50	0.012203
761.00	0.012138
761.50	0.012088
762.00	0.012150
762.50	0.012032
763.00	0.011914
763.50	0.011849
764.00	0.011721
764.50	0.011619
765.00	0.011571
765.50	0.011467
766.00	0.011521
766.50	0.011488
767.00	0.011406
767.50	0.011446
768.00	0.011432
768.50	0.011222
769.00	0.011143
769.50	0.011105
770.00	0.011012
770.50	0.011012
771.00	0.011069
771.50	0.011097
772.00	0.011030
772.50	0.011024
773.00	0.011041
773.50	0.010917
774.00	0.010904
774.50	0.010981
775.00	0.010834
775.50	0.010767
776.00	0.010758
776.50	0.010667
777.00	0.010461
777.50	0.010528
778.00	0.010417
778.50	0.010385
779.00	0.010267
779.50	0.010422
780.00	0.010365
780.50	0.010341
781.00	0.010329
781.50	0.010317
782.00	0.010112
782.50	0.010123
783.00	0.010085
783.50	0.009996
784.00	0.009908
784.50	0.009948
785.00	0.009779
785.50	0.009715
786.00	0.009669
786.50	0.009697
787.00	0.009660
787.50	0.009618
788.00	0.009674
788.50	0.009636
789.00	0.009618
789.50	0.009574
790.00	0.009661
790.50	0.009578
791.00	0.009544
791.50	0.009378
792.00	0.009277
792.50	0.009231
793.00	0.009152
793.50	0.009157
794.00	0.009276
794.50	0.009256
795.00	0.009245
795.50	0.009286
796.00	0.009241
796.50	0.009008
797.00	0.008997
797.50	0.008816
798.00	0.008714
798.50	0.008670
799.00	0.008760
799.50	0.008733
800.00	0.008774
